trial,RT,correct,response,interval,tPos,tGen,tCon1,tCon2,tNoi1,tNoi2,dPed,img,ped,pedRand,cues
1,1.0223,0,2,1,2,1,0.15,0.15,0.7027,0.2227,0.48,5,2,2,4
2,0.96998,1,1,1,3,1,0.15,0.15,0.7727,0.2227,0.55,7,2,2,4
3,0.71762,1,2,2,3,2,0.15,0.15,0.2227,0.7727,0.55,8,2,2,4
4,0.28737,1,2,2,2,2,0.4,0.4,0.32082,0.63892,0.3181,13,3,4,1
5,0.70693,0,1,2,1,1,0.15,0.15,0.32082,0.63892,0.3181,3,3,2,1
6,0.33464,1,1,1,4,2,0.25,0.25,0.74496,0.32082,0.42413,5,3,3,1
7,0.40032,1,2,2,3,2,0.4,0.4,0.43782,0.98782,0.55,8,4,4,4
8,0.49994,1,2,2,1,2,0.25,0.25,0.43782,0.98782,0.55,10,4,3,4
9,0.99735,1,2,2,2,1,0.25,0.25,0.2227,0.7727,0.55,15,2,3,4
10,0.31321,1,2,2,1,1,0.25,0.25,0.2227,0.54403,0.32133,17,2,3,1
11,0.40492,1,1,1,4,1,0.25,0.25,0.54403,0.2227,0.32133,3,2,3,1
12,0.24634,1,2,2,3,1,0.25,0.25,0.2227,0.54403,0.32133,6,2,3,1
13,0.93818,1,1,1,2,1,0.4,0.4,0.71326,0.32082,0.39244,16,3,4,4
14,0.57383,1,2,2,4,2,0.4,0.4,0.2227,0.43692,0.21422,4,2,4,1
15,0.32758,1,1,1,4,1,0.4,0.4,0.43692,0.2227,0.21422,19,2,4,1
16,0.27522,1,1,1,2,1,0.25,0.25,0.74496,0.32082,0.42413,8,3,3,1
17,0.94085,0,2,1,1,2,0.25,0.25,0.6127,0.2227,0.39,15,2,3,4
18,0.3445,1,2,2,2,1,0.4,0.4,0.43782,0.63898,0.20116,5,4,4,1
19,0.97221,1,1,1,4,1,0.25,0.25,0.6927,0.2227,0.47,17,2,3,4
20,0.72554,1,1,1,3,2,0.4,0.4,0.71326,0.32082,0.39244,4,3,4,4
21,0.48146,1,2,2,4,2,0.15,0.15,0.43782,0.98782,0.55,15,4,2,4
22,1.0291,0,2,1,1,2,0.25,0.25,0.71326,0.32082,0.39244,13,3,3,4
23,0.60682,1,2,2,2,1,0.15,0.15,0.2227,0.43692,0.21422,5,2,2,1
24,0.38647,1,1,1,1,1,0.4,0.4,0.63898,0.43782,0.20116,13,4,4,1
25,0.80577,1,2,2,3,1,0.4,0.4,0.43782,0.80449,0.36667,6,4,4,4
26,0.53576,1,2,2,3,1,0.25,0.25,0.43782,0.80449,0.36667,9,4,3,4
27,0.24338,1,2,2,4,2,0.4,0.4,0.32082,0.84408,0.52325,15,3,4,4
28,0.285,1,2,2,1,1,0.4,0.4,0.43782,0.63898,0.20116,4,4,4,1
29,0.79279,1,1,1,1,2,0.15,0.15,0.84408,0.32082,0.52325,18,3,2,4
30,1.1564,1,1,1,2,2,0.15,0.15,0.80449,0.43782,0.36667,19,4,2,4
31,0.93407,0,2,1,3,1,0.4,0.4,0.62116,0.43782,0.18333,5,4,4,4
32,0.71373,1,2,2,4,1,0.15,0.15,0.32082,0.84408,0.52325,19,3,2,4
33,0.27732,1,1,1,4,2,0.4,0.4,0.32981,0.2227,0.10711,4,2,4,1
34,0.28696,1,2,2,4,1,0.25,0.25,0.43782,0.57193,0.1341,6,4,3,1
35,0.29067,1,1,1,2,2,0.25,0.25,0.80449,0.43782,0.36667,1,4,3,4
36,0.81425,1,2,2,3,2,0.25,0.25,0.32082,0.71326,0.39244,10,3,3,4
37,0.41603,1,2,2,1,2,0.25,0.25,0.32082,0.74496,0.42413,11,3,3,1
38,0.37161,1,2,2,3,1,0.4,0.4,0.2227,0.6927,0.47,20,2,4,4
39,0.22138,1,2,2,1,2,0.25,0.25,0.2227,0.6927,0.47,8,2,3,4
40,0.33701,1,2,2,4,2,0.4,0.4,0.2227,0.6127,0.39,17,2,4,4
41,0.26858,0,1,2,3,2,0.4,0.4,0.32082,0.63892,0.3181,10,3,4,1
42,0.33423,1,1,1,2,1,0.15,0.15,0.57193,0.43782,0.1341,18,4,2,1
43,1.202,0,1,2,4,1,0.15,0.15,0.2227,0.6127,0.39,4,2,2,4
44,0.30154,0,1,2,4,1,0.15,0.15,0.32082,0.69194,0.37112,10,3,2,1
45,0.26323,1,1,1,1,1,0.25,0.25,0.74496,0.32082,0.42413,16,3,3,1
46,0.48301,0,2,1,2,2,0.4,0.4,0.32981,0.2227,0.10711,17,2,4,1
47,0.32645,0,1,2,4,2,0.15,0.15,0.43782,0.57193,0.1341,5,4,2,1
48,0.34424,1,1,1,1,1,0.15,0.15,0.43692,0.2227,0.21422,15,2,2,1
49,0.34785,1,2,2,3,1,0.15,0.15,0.2227,0.43692,0.21422,12,2,2,1
50,0.33353,1,1,1,4,1,0.15,0.15,0.63898,0.43782,0.20116,4,4,2,1
51,0.47285,1,2,2,4,1,0.15,0.15,0.2227,0.43692,0.21422,1,2,2,1
52,0.52483,1,2,2,4,1,0.25,0.25,0.43782,0.80449,0.36667,3,4,3,4
53,0.68657,1,1,1,4,2,0.25,0.25,0.71326,0.32082,0.39244,10,3,3,4
54,0.62626,0,1,2,3,1,0.15,0.15,0.32082,0.71326,0.39244,15,3,2,4
55,0.31781,1,1,1,4,2,0.4,0.4,0.74496,0.32082,0.42413,20,3,4,1
56,0.38343,0,2,1,1,2,0.15,0.15,0.63898,0.43782,0.20116,4,4,2,1
57,0.87516,1,1,1,3,2,0.15,0.15,0.80449,0.43782,0.36667,6,4,2,4
58,0.28475,1,1,1,2,1,0.4,0.4,0.74496,0.32082,0.42413,9,3,4,1
59,0.4165,1,2,2,2,2,0.25,0.25,0.32082,0.77867,0.45785,12,3,3,4
60,NaN,0,NaN,1,1,2,0.4,0.4,0.71282,0.43782,0.275,9,4,4,4
61,1.1018,1,1,1,2,1,0.4,0.4,0.6527,0.2227,0.43,17,2,4,4
62,0.54548,1,2,2,2,2,0.15,0.15,0.32082,0.69194,0.37112,14,3,2,1
63,0.23704,1,2,2,3,1,0.4,0.4,0.43782,0.67251,0.23468,5,4,4,1
64,0.42269,1,2,2,4,2,0.6,NaN,0.2227,NaN,0.16066,14,2,3,1
65,0.39432,1,2,2,4,2,0.6,NaN,0.56218,NaN,0.23468,8,4,3,1
66,0.56611,1,2,2,1,1,0.25,NaN,0.2227,NaN,0.45785,7,3,2,4
67,0.40772,1,1,1,1,1,0.6,NaN,0.56218,NaN,0.275,12,4,2,4
68,0.3153,1,2,2,2,1,0.25,NaN,0.56218,NaN,0.23468,8,4,3,1
69,0.51706,1,2,2,4,2,0.25,0.25,0.74496,0.32082,0.45785,2,3,4,4
70,0.52869,0,1,2,2,2,0.6,NaN,0.32082,NaN,0.20116,1,4,3,1
71,0.1483,1,2,2,3,1,0.6,NaN,0.14805,NaN,0.37112,14,3,2,1
72,0.96603,0,1,2,1,2,0.4,NaN,0.2227,NaN,0.43,9,2,4,4
