trial,RT,correct,response,interval,tPos,tGen,tCon1,tCon2,tNoi1,tNoi2,dPed,img,ped,pedRand,cues
1,0.29044,1,2,2,2,1,0.15,0.19683,0.2227,0.2227,0.046833,7,2,2,1
2,0.27846,1,1,1,2,2,0.19683,0.15,0.32082,0.32082,0.046833,7,2,3,1
3,0.91212,1,2,2,1,1,0.4,0.58433,0.43782,0.43782,0.18433,8,4,4,4
4,0.35561,1,1,1,4,2,0.17392,0.15,0.2227,0.2227,0.023917,19,2,2,1
5,0.44548,1,1,1,1,2,0.58433,0.4,0.32082,0.32082,0.18433,15,4,3,4
6,0.31309,1,1,1,1,1,0.46975,0.4,0.32082,0.32082,0.06975,2,4,3,1
7,0.29277,1,2,2,1,2,0.15,0.17392,0.32082,0.32082,0.023917,9,2,3,1
8,0.31005,1,2,2,3,2,0.4,0.46975,0.2227,0.2227,0.06975,14,4,2,1
9,0.4021,0,1,2,2,1,0.25,0.27392,0.32082,0.32082,0.023917,18,3,3,1
10,0.27787,0,1,2,2,2,0.25,0.29683,0.43782,0.43782,0.046833,5,3,4,1
11,0.31151,1,2,2,4,2,0.25,0.31975,0.32082,0.32082,0.06975,16,3,3,1
12,0.99508,1,1,1,4,2,0.24267,0.15,0.32082,0.32082,0.092667,19,2,3,4
13,0.98871,1,2,2,3,1,0.15,0.24267,0.43782,0.43782,0.092667,7,2,4,4
14,0.2964,1,2,2,1,2,0.4,0.46975,0.32082,0.32082,0.06975,19,4,3,1
15,0.94808,1,1,1,2,2,0.56142,0.4,0.43782,0.43782,0.16142,8,4,4,4
16,0.71762,1,2,2,4,1,0.4,0.56142,0.2227,0.2227,0.16142,16,4,2,4
17,0.44131,1,2,2,1,2,0.4,0.44683,0.2227,0.2227,0.046833,17,4,2,1
18,0.30097,1,2,2,2,1,0.25,0.31975,0.43782,0.43782,0.06975,6,3,4,1
19,0.5027,1,2,2,3,1,0.25,0.34267,0.32082,0.32082,0.092667,2,3,3,4
20,0.44231,0,2,1,4,2,0.44683,0.4,0.2227,0.2227,0.046833,19,4,2,1
21,0.29401,1,1,1,4,1,0.31975,0.25,0.43782,0.43782,0.06975,5,3,4,1
22,0.30373,1,2,2,1,2,0.4,0.46975,0.32082,0.32082,0.06975,8,4,3,1
23,0.33925,1,2,2,4,1,0.15,0.17392,0.43782,0.43782,0.023917,8,2,4,1
24,0.94094,1,2,2,4,2,0.15,0.21975,0.2227,0.2227,0.06975,18,2,2,4
25,0.60858,1,1,1,1,1,0.31975,0.25,0.43782,0.43782,0.06975,14,3,4,4
26,0.4203,1,2,2,1,1,0.25,0.31975,0.32082,0.32082,0.06975,7,3,3,4
27,0.48583,0,1,2,3,2,0.25,0.31975,0.2227,0.2227,0.06975,19,3,2,4
28,0.6896,1,2,2,2,2,0.25,0.34267,0.2227,0.2227,0.092667,20,3,2,4
29,0.7973,1,2,2,4,1,0.4,0.56142,0.2227,0.2227,0.16142,17,4,2,4
30,0.33498,1,2,2,3,1,0.4,0.46975,0.43782,0.43782,0.06975,15,4,4,1
31,0.29053,1,2,2,3,2,0.4,0.46975,0.43782,0.43782,0.06975,7,4,4,1
32,0.80613,1,2,2,1,2,0.4,0.5385,0.32082,0.32082,0.1385,8,4,3,4
33,0.43991,1,1,1,4,1,0.5385,0.4,0.32082,0.32082,0.1385,12,4,3,4
34,0.32359,0,2,1,3,1,0.151,0.15,0.43782,0.43782,0.001,4,2,4,1
35,0.28521,1,2,2,4,1,0.4,0.44683,0.32082,0.32082,0.046833,1,4,3,1
36,0.3368,1,2,2,1,1,0.4,0.44683,0.2227,0.2227,0.046833,10,4,2,1
37,0.3085,1,1,1,1,2,0.29683,0.25,0.32082,0.32082,0.046833,2,3,3,1
38,0.40584,1,2,2,3,2,0.15,0.21975,0.32082,0.32082,0.06975,12,2,3,4
39,0.28985,1,1,1,1,1,0.17392,0.15,0.32082,0.32082,0.023917,1,2,3,1
40,0.80546,1,2,2,2,1,0.15,0.21975,0.2227,0.2227,0.06975,15,2,2,4
41,0.37506,1,2,2,4,2,0.25,0.34267,0.2227,0.2227,0.092667,17,3,2,4
42,0.30685,1,2,2,3,2,0.4,0.5385,0.43782,0.43782,0.1385,17,4,4,4
43,0.35846,1,2,2,4,2,0.15,0.17392,0.2227,0.2227,0.023917,4,2,2,1
44,0.2721,1,1,1,4,2,0.29683,0.25,0.2227,0.2227,0.046833,7,3,2,1
45,0.30775,1,2,2,1,2,0.15,0.17392,0.2227,0.2227,0.023917,4,2,2,1
46,0.83736,1,2,2,3,1,0.15,0.19683,0.2227,0.2227,0.046833,8,2,2,4
47,0.35315,1,1,1,4,1,0.34267,0.25,0.32082,0.32082,0.092667,7,3,3,4
48,0.39675,0,1,2,3,2,0.15,0.19683,0.43782,0.43782,0.046833,18,2,4,4
49,0.31037,1,2,2,2,1,0.25,0.29683,0.2227,0.2227,0.046833,3,3,2,1
50,0.41803,1,1,1,2,1,0.151,0.15,0.32082,0.32082,0.001,3,2,3,1
51,0.58966,1,1,1,1,1,0.21975,0.15,0.43782,0.43782,0.06975,14,2,4,4
52,0.28731,1,1,1,2,2,0.151,0.15,0.43782,0.43782,0.001,1,2,4,1
53,0.89903,1,2,2,1,1,0.25,0.31975,0.32082,0.32082,0.06975,1,3,3,4
54,0.26062,1,2,2,4,2,0.25,0.27392,0.2227,0.2227,0.023917,17,3,2,1
55,0.42429,0,1,2,2,1,0.4,0.44683,0.43782,0.43782,0.046833,13,4,4,1
56,0.38792,1,2,2,2,2,0.15,0.21975,0.2227,0.2227,0.06975,14,2,2,4
57,0.3897,1,1,1,4,1,0.27392,0.25,0.2227,0.2227,0.023917,4,3,2,1
58,0.37734,1,2,2,4,1,0.15,0.21975,0.32082,0.32082,0.06975,6,2,3,4
59,0.397,1,2,2,2,1,0.25,0.27392,0.43782,0.43782,0.023917,4,3,4,1
60,0.37461,1,2,2,4,2,0.4,0.51558,0.32082,0.32082,0.11558,4,4,3,4
61,0.43434,0,2,1,1,2,0.31975,0.25,0.43782,0.43782,0.06975,1,3,4,4
62,0.84587,0,2,1,4,1,0.51558,0.4,0.2227,0.2227,0.11558,5,4,2,4
63,0.28762,1,1,1,3,2,0.251,0.25,0.32082,0.32082,0.001,18,3,3,1
64,0.37129,1,2,2,3,1,0.6,NaN,0.43782,NaN,0.1385,9,4,4,4
65,0.38891,1,2,2,1,1,0.1,NaN,0.32082,NaN,0.092667,12,3,2,4
66,1.0165,1,1,1,3,1,0.25,NaN,0.2227,NaN,0.1385,8,4,2,4
67,0.22815,1,2,2,1,1,0.4,NaN,0.32082,NaN,0.06975,5,4,4,1
68,0.52594,1,1,1,4,2,0.15,NaN,0.32082,NaN,0.092667,15,3,4,4
69,0.32956,1,2,2,3,2,0.1,NaN,0.14805,NaN,0.001,9,2,4,1
70,0.68523,1,2,2,4,1,0.15,NaN,0.56218,NaN,0.092667,6,3,4,4
71,0.70284,1,1,1,2,2,0.1,NaN,0.2227,NaN,0.046833,7,2,4,4
72,0.98647,0,1,2,2,1,0.25,0.27392,0.32082,0.32082,0.046833,9,2,3,4
