trial,RT,correct,response,interval,tPos,tGen,tCon1,tCon2,tNoi1,tNoi2,dPed,img,ped,pedRand,cues
1,0.3017,1,1,1,2,1,0.29319,0.25,0.2227,0.2227,0.043192,16,3,2,1
2,0.28735,1,2,2,1,1,0.4,0.46968,0.43782,0.43782,0.069683,11,4,4,1
3,0.27466,1,2,2,1,2,0.4,0.46968,0.2227,0.2227,0.069683,11,4,2,1
4,0.27015,1,2,2,4,1,0.25,0.29319,0.43782,0.43782,0.043192,1,3,4,1
5,0.68028,0,1,2,1,1,0.15,0.24165,0.43782,0.43782,0.091652,7,2,4,4
6,0.324,0,2,1,3,2,0.46968,0.4,0.32082,0.32082,0.069683,3,4,3,1
7,0.38961,1,1,1,4,1,0.54104,0.4,0.2227,0.2227,0.14104,17,4,2,4
8,0.25738,1,2,2,1,1,0.25,0.29319,0.43782,0.43782,0.043192,17,3,4,1
9,0.21295,1,2,2,3,1,0.4,0.49291,0.32082,0.32082,0.09291,7,4,3,1
10,0.31054,1,1,1,2,1,0.54104,0.4,0.2227,0.2227,0.14104,1,4,2,4
11,0.28221,1,1,1,2,2,0.18161,0.15,0.43782,0.43782,0.031612,16,2,4,1
12,1.1738,0,1,2,1,1,0.25,0.33103,0.2227,0.2227,0.081029,14,3,2,4
13,0.27158,0,2,1,4,2,0.27879,0.25,0.32082,0.32082,0.028795,10,3,3,1
14,0.083153,1,1,1,2,2,0.49291,0.4,0.2227,0.2227,0.09291,8,4,2,1
15,1.093,1,2,2,3,1,0.15,0.2722,0.43782,0.43782,0.1222,13,2,4,4
16,0.70449,1,2,2,3,1,0.4,0.54104,0.43782,0.43782,0.14104,3,4,4,4
17,0.26009,1,1,1,2,1,0.18161,0.15,0.43782,0.43782,0.031612,20,2,4,1
18,0.27781,1,1,1,2,1,0.18161,0.15,0.43782,0.43782,0.031612,8,2,4,1
19,0.65742,1,2,2,2,2,0.4,0.49403,0.32082,0.32082,0.094029,13,4,3,4
20,0.26122,1,2,2,1,2,0.25,0.29319,0.32082,0.32082,0.043192,14,3,3,1
21,0.39084,1,1,1,1,2,0.35804,0.25,0.2227,0.2227,0.10804,8,3,2,4
22,0.32254,1,1,1,4,2,0.35804,0.25,0.32082,0.32082,0.10804,7,3,3,4
23,0.41408,1,2,2,3,1,0.25,0.35804,0.43782,0.43782,0.10804,18,3,4,4
24,0.47985,1,2,2,4,2,0.15,0.17107,0.2227,0.2227,0.021075,5,2,2,1
25,0.43552,1,1,1,2,2,0.49403,0.4,0.32082,0.32082,0.094029,6,4,3,4
26,0.27717,1,1,1,4,1,0.2722,0.15,0.32082,0.32082,0.1222,10,2,3,4
27,0.29671,1,2,2,4,1,0.25,0.29319,0.2227,0.2227,0.043192,13,3,2,1
28,0.35646,1,1,1,3,2,0.33103,0.25,0.2227,0.2227,0.081029,19,3,2,4
29,0.39002,1,2,2,2,2,0.4,0.49403,0.2227,0.2227,0.094029,20,4,2,4
30,0.30571,1,1,1,1,1,0.33103,0.25,0.43782,0.43782,0.081029,4,3,4,4
31,0.6853,1,2,2,2,1,0.25,0.29319,0.2227,0.2227,0.043192,14,3,2,1
32,0.65503,1,1,1,1,1,0.2722,0.15,0.43782,0.43782,0.1222,2,2,4,4
33,0.53865,1,2,2,2,2,0.4,0.44701,0.32082,0.32082,0.047015,3,4,3,4
34,0.41442,1,2,2,2,1,0.15,0.24165,0.32082,0.32082,0.091652,11,2,3,4
35,0.66398,1,2,2,3,2,0.4,0.44701,0.43782,0.43782,0.047015,2,4,4,4
36,0.28372,0,2,1,1,1,0.17107,0.15,0.43782,0.43782,0.021075,15,2,4,1
37,0.38931,1,2,2,2,2,0.25,0.33103,0.2227,0.2227,0.081029,11,3,2,4
38,0.25693,1,1,1,1,1,0.49291,0.4,0.32082,0.32082,0.09291,3,4,3,1
39,0.37262,1,2,2,1,1,0.15,0.24165,0.32082,0.32082,0.091652,3,2,3,4
40,0.75023,0,1,2,4,2,0.15,0.24165,0.2227,0.2227,0.091652,17,2,2,4
41,0.38583,1,2,2,4,1,0.4,0.46968,0.2227,0.2227,0.069683,16,4,2,1
42,0.93359,1,2,2,1,2,0.15,0.25693,0.2227,0.2227,0.10693,15,2,2,4
43,0.31088,1,2,2,2,2,0.25,0.31752,0.43782,0.43782,0.067524,1,3,4,4
44,0.85892,1,2,2,4,2,0.15,0.18161,0.2227,0.2227,0.031612,14,2,2,1
45,0.41461,0,2,1,4,2,0.44701,0.4,0.2227,0.2227,0.047015,5,4,2,4
46,0.26417,0,2,1,3,1,0.46968,0.4,0.43782,0.43782,0.069683,4,4,4,1
47,0.21175,1,2,2,1,1,0.4,0.4813,0.43782,0.43782,0.081296,3,4,4,1
48,0.4136,0,1,2,3,1,0.15,0.25693,0.2227,0.2227,0.10693,14,2,2,4
49,0.38509,1,1,1,1,1,0.49403,0.4,0.43782,0.43782,0.094029,2,4,4,4
50,0.3169,0,2,1,1,1,0.28599,0.25,0.32082,0.32082,0.035993,9,3,3,1
51,1.0705,0,1,2,4,2,0.25,0.31752,0.43782,0.43782,0.067524,8,3,4,4
52,0.29007,0,2,1,4,2,0.29319,0.25,0.2227,0.2227,0.043192,17,3,2,1
53,0.30975,1,2,2,4,2,0.15,0.18161,0.2227,0.2227,0.031612,18,2,2,1
54,0.69542,0,1,2,4,2,0.25,0.33103,0.32082,0.32082,0.081029,19,3,3,4
55,0.2671,1,2,2,1,2,0.4,0.4813,0.32082,0.32082,0.081296,14,4,3,1
56,0.29278,1,1,1,1,1,0.18161,0.15,0.32082,0.32082,0.031612,14,2,3,1
57,0.4801,1,2,2,2,1,0.15,0.2722,0.43782,0.43782,0.1222,10,2,4,4
58,0.26017,1,2,2,2,2,0.15,0.17634,0.32082,0.32082,0.026343,7,2,3,1
59,0.28581,1,2,2,4,1,0.25,0.29679,0.43782,0.43782,0.046791,9,3,4,1
60,0.44942,0,1,2,2,1,0.4,0.4813,0.43782,0.43782,0.081296,13,4,4,1
61,0.34104,1,2,2,2,2,0.25,0.34453,0.32082,0.32082,0.094533,10,3,3,4
62,0.35873,1,1,1,2,2,0.49291,0.4,0.2227,0.2227,0.09291,9,4,2,1
63,0.3624,1,2,2,1,1,0.4,0.49403,0.43782,0.43782,0.094029,20,4,4,4
64,0.27799,1,1,1,1,1,0.6,NaN,0.32082,NaN,0.046791,5,3,4,1
65,0.27969,1,2,2,2,2,0.25,NaN,0.56218,NaN,0.046791,13,3,3,1
66,0.31533,0,2,1,1,2,0.4,0.46968,0.2227,0.2227,0.026343,16,2,3,1
67,0.42066,1,1,1,4,1,0.25,0.29319,0.43782,0.43782,0.094029,15,4,3,4
68,0.45664,1,1,1,1,1,0.15,0.24165,0.43782,0.43782,0.094533,11,3,3,4
69,0.2843,1,2,2,3,1,0.46968,0.4,0.32082,0.32082,0.031612,11,2,2,1
70,0.38199,1,1,1,4,1,0.54104,0.4,0.2227,0.2227,0.1222,15,2,3,4
71,0.2656,0,1,2,2,1,0.1,NaN,0.2227,NaN,0.031612,9,2,3,1
72,0.34134,1,1,1,1,2,0.1,NaN,0.2227,NaN,0.1222,20,2,2,4
