trial,RT,correct,response,interval,tPos,tGen,tCon1,tCon2,tNoi1,tNoi2,dPed,img
1,1.0223,0,2,1,2,1,0.15,0.15,0.7027,0.2227,0.48,5
2,0.96998,1,1,1,3,1,0.15,0.15,0.7727,0.2227,0.55,7
3,0.71762,1,2,2,3,2,0.15,0.15,0.2227,0.7727,0.55,8
4,0.28737,1,2,2,2,2,0.4,0.4,0.32082,0.63892,0.3181,13
5,0.70693,0,1,2,1,1,0.15,0.15,0.32082,0.63892,0.3181,3
6,0.33464,1,1,1,4,2,0.25,0.25,0.74496,0.32082,0.42413,5
7,0.40032,1,2,2,3,2,0.4,0.4,0.43782,0.98782,0.55,8
8,0.49994,1,2,2,1,2,0.25,0.25,0.43782,0.98782,0.55,10
9,0.99735,1,2,2,2,1,0.25,0.25,0.2227,0.7727,0.55,15
10,0.31321,1,2,2,1,1,0.25,0.25,0.2227,0.54403,0.32133,17
11,0.40492,1,1,1,4,1,0.25,0.25,0.54403,0.2227,0.32133,3
12,0.24634,1,2,2,3,1,0.25,0.25,0.2227,0.54403,0.32133,6
13,0.93818,1,1,1,2,1,0.4,0.4,0.71326,0.32082,0.39244,16
14,0.57383,1,2,2,4,2,0.4,0.4,0.2227,0.43692,0.21422,4
15,0.32758,1,1,1,4,1,0.4,0.4,0.43692,0.2227,0.21422,19
16,0.27522,1,1,1,2,1,0.25,0.25,0.74496,0.32082,0.42413,8
17,0.94085,0,2,1,1,2,0.25,0.25,0.6127,0.2227,0.39,15
18,0.3445,1,2,2,2,1,0.4,0.4,0.43782,0.63898,0.20116,5
19,0.97221,1,1,1,4,1,0.25,0.25,0.6927,0.2227,0.47,17
20,0.72554,1,1,1,3,2,0.4,0.4,0.71326,0.32082,0.39244,4
21,0.48146,1,2,2,4,2,0.15,0.15,0.43782,0.98782,0.55,15
22,1.0291,0,2,1,1,2,0.25,0.25,0.71326,0.32082,0.39244,13
23,0.60682,1,2,2,2,1,0.15,0.15,0.2227,0.43692,0.21422,5
24,0.38647,1,1,1,1,1,0.4,0.4,0.63898,0.43782,0.20116,13
25,0.80577,1,2,2,3,1,0.4,0.4,0.43782,0.80449,0.36667,6
26,0.53576,1,2,2,3,1,0.25,0.25,0.43782,0.80449,0.36667,9
27,0.24338,1,2,2,4,2,0.4,0.4,0.32082,0.84408,0.52325,15
28,0.285,1,2,2,1,1,0.4,0.4,0.43782,0.63898,0.20116,4
29,0.79279,1,1,1,1,2,0.15,0.15,0.84408,0.32082,0.52325,18
30,1.1564,1,1,1,2,2,0.15,0.15,0.80449,0.43782,0.36667,19
31,0.93407,0,2,1,3,1,0.4,0.4,0.62116,0.43782,0.18333,5
32,0.71373,1,2,2,4,1,0.15,0.15,0.32082,0.84408,0.52325,19
33,0.27732,1,1,1,4,2,0.4,0.4,0.32981,0.2227,0.10711,4
34,0.28696,1,2,2,4,1,0.25,0.25,0.43782,0.57193,0.1341,6
35,0.29067,1,1,1,2,2,0.25,0.25,0.80449,0.43782,0.36667,1
36,0.81425,1,2,2,3,2,0.25,0.25,0.32082,0.71326,0.39244,10
37,0.41603,1,2,2,1,2,0.25,0.25,0.32082,0.74496,0.42413,11
38,0.37161,1,2,2,3,1,0.4,0.4,0.2227,0.6927,0.47,20
39,0.22138,1,2,2,1,2,0.25,0.25,0.2227,0.6927,0.47,8
40,0.33701,1,2,2,4,2,0.4,0.4,0.2227,0.6127,0.39,17
41,0.26858,0,1,2,3,2,0.4,0.4,0.32082,0.63892,0.3181,10
42,0.33423,1,1,1,2,1,0.15,0.15,0.57193,0.43782,0.1341,18
43,1.202,0,1,2,4,1,0.15,0.15,0.2227,0.6127,0.39,4
44,0.30154,0,1,2,4,1,0.15,0.15,0.32082,0.69194,0.37112,10
45,0.26323,1,1,1,1,1,0.25,0.25,0.74496,0.32082,0.42413,16
46,0.48301,0,2,1,2,2,0.4,0.4,0.32981,0.2227,0.10711,17
47,0.32645,0,1,2,4,2,0.15,0.15,0.43782,0.57193,0.1341,5
48,0.34424,1,1,1,1,1,0.15,0.15,0.43692,0.2227,0.21422,15
49,0.34785,1,2,2,3,1,0.15,0.15,0.2227,0.43692,0.21422,12
50,0.33353,1,1,1,4,1,0.15,0.15,0.63898,0.43782,0.20116,4
51,0.47285,1,2,2,4,1,0.15,0.15,0.2227,0.43692,0.21422,1
52,0.52483,1,2,2,4,1,0.25,0.25,0.43782,0.80449,0.36667,3
53,0.68657,1,1,1,4,2,0.25,0.25,0.71326,0.32082,0.39244,10
54,0.62626,0,1,2,3,1,0.15,0.15,0.32082,0.71326,0.39244,15
55,0.31781,1,1,1,4,2,0.4,0.4,0.74496,0.32082,0.42413,20
56,0.38343,0,2,1,1,2,0.15,0.15,0.63898,0.43782,0.20116,4
57,0.87516,1,1,1,3,2,0.15,0.15,0.80449,0.43782,0.36667,6
58,0.28475,1,1,1,2,1,0.4,0.4,0.74496,0.32082,0.42413,9
59,0.4165,1,2,2,2,2,0.25,0.25,0.32082,0.77867,0.45785,12
60,NaN,0,NaN,1,1,2,0.4,0.4,0.71282,0.43782,0.275,9
61,1.1018,1,1,1,2,1,0.4,0.4,0.6527,0.2227,0.43,17
62,0.54548,1,2,2,2,2,0.15,0.15,0.32082,0.69194,0.37112,14
63,0.23704,1,2,2,3,1,0.4,0.4,0.43782,0.67251,0.23468,5
64,0.42269,1,2,2,4,2,0.6,NaN,0.2227,NaN,0.16066,14
65,0.39432,1,2,2,4,2,0.6,NaN,0.56218,NaN,0.23468,8
66,0.56611,1,2,2,1,1,0.25,NaN,0.2227,NaN,0.45785,7
67,0.40772,1,1,1,1,1,0.6,NaN,0.56218,NaN,0.275,12
68,0.3153,1,2,2,2,1,0.25,NaN,0.56218,NaN,0.23468,8
69,0.51706,1,2,2,4,2,0.25,0.25,0.74496,0.32082,0.45785,2
70,0.52869,0,1,2,2,2,0.6,NaN,0.32082,NaN,0.20116,1
71,0.1483,1,2,2,3,1,0.6,NaN,0.14805,NaN,0.37112,14
72,0.96603,0,1,2,1,2,0.4,NaN,0.2227,NaN,0.43,9
