trial,RT,correct,response,interval,tPos,tGen,tCon1,tCon2,tNoi1,tNoi2,dPed,img
1,0.26117,1,2,2,2,2,0.6,NaN,0.26894,NaN,0.092667,20
2,0.76674,0,1,2,4,1,0.6,NaN,0.26894,NaN,0.11558,20
3,0.27444,1,2,2,4,1,0.6,NaN,0.26894,NaN,0.1385,20
4,0.40604,1,1,1,3,2,0.6,NaN,0.26894,NaN,0.1385,20
5,0.31169,1,1,1,2,1,0.6,NaN,0.26894,NaN,0.06975,20
6,0.2753,1,1,1,2,2,0.6,NaN,0.26894,NaN,0.06975,20
7,0.27702,1,1,1,3,1,0.6,NaN,0.26894,NaN,0.06975,20
8,0.28865,1,2,2,2,1,0.6,NaN,0.26894,NaN,0.046833,20
9,0.45232,1,1,1,1,2,0.6,NaN,0.26894,NaN,0.18433,20
10,0.64597,1,2,2,1,1,0.6,NaN,0.26894,NaN,0.1385,20
11,0.61769,1,1,1,4,2,0.6,NaN,0.26894,NaN,0.18433,20
12,0.34131,1,2,2,1,1,0.6,NaN,0.26894,NaN,0.06975,20
13,0.47899,1,1,1,3,1,0.6,NaN,0.26894,NaN,0.092667,20
14,0.38672,1,2,2,1,2,0.6,NaN,0.26894,NaN,0.092667,20
15,0.27825,1,2,2,3,1,0.6,NaN,0.26894,NaN,0.046833,20
16,0.22392,1,2,2,2,2,0.6,NaN,0.26894,NaN,0.046833,20
17,0.49962,1,2,2,2,2,0.6,NaN,0.26894,NaN,0.11558,20
18,0.72527,1,1,1,4,1,0.6,NaN,0.26894,NaN,0.06975,20
19,0.66499,1,2,2,3,1,0.6,NaN,0.26894,NaN,0.11558,20
20,0.80464,0,2,1,2,1,0.6,NaN,0.26894,NaN,0.06975,20
21,0.45427,1,1,1,1,2,0.6,NaN,0.26894,NaN,0.046833,20
22,0.41781,1,1,1,4,2,0.6,NaN,0.26894,NaN,0.11558,20
23,0.7975,1,2,2,2,1,0.6,NaN,0.26894,NaN,0.092667,20
24,0.2792,0,2,1,4,1,0.6,NaN,0.26894,NaN,0.046833,20
25,0.35485,1,2,2,2,1,0.6,NaN,0.26894,NaN,0.18433,20
26,0.4045,1,1,1,2,2,0.6,NaN,0.26894,NaN,0.092667,20
27,0.74413,1,2,2,3,2,0.6,NaN,0.26894,NaN,0.16142,20
28,0.97181,1,1,1,1,2,0.6,NaN,0.26894,NaN,0.16142,20
29,0.70947,0,2,1,3,2,0.6,NaN,0.26894,NaN,0.16142,20
30,0.38509,0,1,2,2,2,0.6,NaN,0.26894,NaN,0.046833,20
31,0.24484,1,2,2,2,2,0.6,NaN,0.26894,NaN,0.092667,20
32,0.33444,1,2,2,1,1,0.6,NaN,0.26894,NaN,0.06975,20
33,0.27413,1,2,2,4,1,0.6,NaN,0.26894,NaN,0.06975,20
34,0.26181,1,2,2,3,2,0.6,NaN,0.26894,NaN,0.06975,20
35,0.7194,0,2,1,1,1,0.6,NaN,0.26894,NaN,0.092667,20
36,0.28311,1,2,2,4,1,0.6,NaN,0.26894,NaN,0.06975,20
37,0.43673,1,2,2,1,1,0.6,NaN,0.26894,NaN,0.06975,20
38,0.73621,1,2,2,2,2,0.6,NaN,0.26894,NaN,0.092667,20
39,0.29194,1,1,1,4,1,0.6,NaN,0.26894,NaN,0.046833,20
40,0.26173,1,1,1,2,2,0.6,NaN,0.26894,NaN,0.18433,20
41,0.71334,1,2,2,1,1,0.6,NaN,0.26894,NaN,0.06975,20
42,0.28495,0,2,1,3,2,0.6,NaN,0.26894,NaN,0.06975,20
43,0.28669,1,2,2,2,1,0.6,NaN,0.26894,NaN,0.046833,20
44,0.35431,1,2,2,1,2,0.6,NaN,0.26894,NaN,0.06975,20
45,0.34196,1,1,1,3,2,0.6,NaN,0.26894,NaN,0.18433,20
46,0.71971,1,2,2,3,2,0.6,NaN,0.26894,NaN,0.06975,20
47,0.29133,1,1,1,1,1,0.6,NaN,0.26894,NaN,0.046833,20
48,0.16498,1,1,1,1,2,0.6,NaN,0.26894,NaN,0.092667,20
49,0.44064,1,2,2,4,1,0.6,NaN,0.26894,NaN,0.092667,20
50,0.55627,1,1,1,2,2,0.6,NaN,0.26894,NaN,0.11558,20
51,0.27791,1,2,2,3,1,0.6,NaN,0.26894,NaN,0.18433,20
52,0.28154,1,1,1,3,2,0.6,NaN,0.26894,NaN,0.046833,20
53,0.26921,0,1,2,1,2,0.6,NaN,0.26894,NaN,0.023917,20
54,0.27089,0,2,1,1,2,0.6,NaN,0.26894,NaN,0.046833,20
55,0.25847,1,2,2,4,1,0.6,NaN,0.26894,NaN,0.092667,20
56,0.25381,1,2,2,1,1,0.6,NaN,0.26894,NaN,0.06975,20
57,0.65583,1,2,2,4,2,0.6,NaN,0.26894,NaN,0.06975,20
58,0.31554,1,1,1,1,1,0.6,NaN,0.26894,NaN,0.06975,20
59,0.26915,1,1,1,2,1,0.6,NaN,0.26894,NaN,0.16142,20
60,0.45689,1,1,1,2,1,0.6,NaN,0.26894,NaN,0.16142,20
61,0.56443,1,2,2,4,2,0.6,NaN,0.26894,NaN,0.046833,20
62,0.31814,1,2,2,1,1,0.6,NaN,0.26894,NaN,0.023917,20
63,0.27378,0,2,1,3,2,0.6,NaN,0.26894,NaN,0.023917,20
64,0.35742,1,2,2,4,2,0.6,NaN,0.26894,NaN,0.046833,20
65,0.2471,1,2,2,4,1,0.6,NaN,0.26894,NaN,0.046833,20
66,0.41869,1,2,2,3,2,0.6,NaN,0.26894,NaN,0.06975,20
67,0.88024,0,2,1,4,2,0.6,NaN,0.26894,NaN,0.11558,20
68,0.34407,1,1,1,2,2,0.6,NaN,0.26894,NaN,0.046833,20
69,0.33174,1,1,1,3,1,0.6,NaN,0.26894,NaN,0.1385,20
70,0.28539,1,2,2,2,2,0.6,NaN,0.26894,NaN,0.06975,20
71,0.2651,1,2,2,2,2,0.6,NaN,0.26894,NaN,0.06975,20
72,0.97277,1,1,1,3,1,0.6,NaN,0.26894,NaN,0.16142,20
