trial,RT,correct,response,interval,tPos,tGen,tCon1,tCon2,tNoi1,tNoi2,dPed,img
1,0.31288,0,2,1,4,1,0.1,NaN,0.62246,NaN,0.001,19
2,0.47459,0,1,2,3,1,0.1,NaN,0.62246,NaN,0.001,19
3,0.39816,1,2,2,4,2,0.1,NaN,0.62246,NaN,0.001,19
4,0.4499,1,1,1,1,2,0.1,NaN,0.62246,NaN,0.18433,19
5,0.49156,0,2,1,4,2,0.1,NaN,0.62246,NaN,0.001,19
6,0.87119,1,1,1,1,1,0.1,NaN,0.62246,NaN,0.001,19
7,0.33882,1,1,1,1,2,0.1,NaN,0.62246,NaN,0.18433,19
8,0.97251,1,2,2,1,2,0.1,NaN,0.62246,NaN,0.001,19
9,0.33619,1,1,1,1,1,0.1,NaN,0.62246,NaN,0.18433,19
10,0.32978,1,1,1,3,1,0.1,NaN,0.62246,NaN,0.001,19
11,0.46948,1,2,2,2,1,0.1,NaN,0.62246,NaN,0.18433,19
12,0.60907,1,1,1,1,2,0.1,NaN,0.62246,NaN,0.18433,19
13,0.49879,0,2,1,4,1,0.1,NaN,0.62246,NaN,0.001,19
14,0.76652,1,1,1,1,2,0.1,NaN,0.62246,NaN,0.18433,19
15,0.3541,1,1,1,2,2,0.1,NaN,0.62246,NaN,0.001,19
16,0.31571,0,1,2,3,2,0.1,NaN,0.62246,NaN,0.001,19
17,0.30345,1,1,1,2,2,0.1,NaN,0.62246,NaN,0.18433,19
18,0.32303,1,2,2,4,1,0.1,NaN,0.62246,NaN,0.18433,19
19,0.33269,1,1,1,4,1,0.1,NaN,0.62246,NaN,0.18433,19
20,0.42438,1,2,2,4,2,0.1,NaN,0.62246,NaN,0.092667,19
21,0.314,1,1,1,1,2,0.1,NaN,0.62246,NaN,0.18433,19
22,0.30971,1,2,2,3,2,0.1,NaN,0.62246,NaN,0.001,19
23,0.33733,1,2,2,4,2,0.1,NaN,0.62246,NaN,0.18433,19
24,0.61097,1,2,2,4,2,0.1,NaN,0.62246,NaN,0.092667,19
25,0.31835,1,2,2,4,1,0.1,NaN,0.62246,NaN,0.18433,19
26,0.29035,1,1,1,3,2,0.1,NaN,0.62246,NaN,0.092667,19
27,0.33194,1,2,2,4,2,0.1,NaN,0.62246,NaN,0.092667,19
28,0.29563,1,2,2,1,2,0.1,NaN,0.62246,NaN,0.18433,19
29,0.32137,1,1,1,2,1,0.1,NaN,0.62246,NaN,0.092667,19
30,0.32493,1,2,2,2,1,0.1,NaN,0.62246,NaN,0.18433,19
31,0.29653,0,2,1,4,2,0.1,NaN,0.62246,NaN,0.092667,19
32,0.39425,1,1,1,2,1,0.1,NaN,0.62246,NaN,0.001,19
33,0.30195,1,2,2,4,2,0.1,NaN,0.62246,NaN,0.18433,19
34,0.31358,0,2,1,3,1,0.1,NaN,0.62246,NaN,0.001,19
35,0.64328,1,1,1,2,2,0.1,NaN,0.62246,NaN,0.092667,19
36,0.27088,1,2,2,4,2,0.1,NaN,0.62246,NaN,0.092667,19
37,0.29855,1,2,2,3,2,0.1,NaN,0.62246,NaN,0.092667,19
38,0.39618,1,2,2,4,2,0.1,NaN,0.62246,NaN,0.092667,19
39,1.1359,0,1,2,3,2,0.1,NaN,0.62246,NaN,0.092667,19
40,0.29756,1,2,2,4,1,0.1,NaN,0.62246,NaN,0.18433,19
41,0.30915,1,2,2,3,1,0.1,NaN,0.62246,NaN,0.18433,19
42,0.41686,1,2,2,3,2,0.1,NaN,0.62246,NaN,0.18433,19
43,0.41046,1,2,2,3,1,0.1,NaN,0.62246,NaN,0.18433,19
44,0.36616,1,1,1,1,1,0.1,NaN,0.62246,NaN,0.092667,19
45,1.1297,1,2,2,3,2,0.1,NaN,0.62246,NaN,0.092667,19
46,1.0994,0,1,2,3,1,0.1,NaN,0.62246,NaN,0.18433,19
47,0.29508,1,1,1,2,2,0.1,NaN,0.62246,NaN,0.18433,19
48,0.35477,1,2,2,3,2,0.1,NaN,0.62246,NaN,0.23017,19
49,0.33247,1,2,2,1,2,0.1,NaN,0.62246,NaN,0.18433,19
50,0.52013,1,2,2,1,1,0.1,NaN,0.62246,NaN,0.092667,19
51,0.37777,1,2,2,2,1,0.1,NaN,0.62246,NaN,0.23017,19
52,0.52543,1,2,2,3,2,0.1,NaN,0.62246,NaN,0.092667,19
53,0.32108,1,2,2,2,1,0.1,NaN,0.62246,NaN,0.001,19
54,0.75467,0,1,2,1,1,0.1,NaN,0.62246,NaN,0.001,19
55,0.35821,1,1,1,3,1,0.1,NaN,0.62246,NaN,0.092667,19
56,0.37801,1,1,1,2,1,0.1,NaN,0.62246,NaN,0.092667,19
57,0.33173,1,2,2,1,1,0.1,NaN,0.62246,NaN,0.18433,19
58,0.35932,1,1,1,1,1,0.1,NaN,0.62246,NaN,0.001,19
59,0.26705,1,1,1,2,2,0.1,NaN,0.62246,NaN,0.092667,19
60,0.2926,1,2,2,3,1,0.1,NaN,0.62246,NaN,0.092667,19
61,0.35234,1,1,1,1,1,0.1,NaN,0.62246,NaN,0.092667,19
62,0.44196,1,2,2,1,1,0.1,NaN,0.62246,NaN,0.1385,19
63,0.90166,1,2,2,2,2,0.1,NaN,0.62246,NaN,0.001,19
64,0.29722,1,2,2,2,2,0.1,NaN,0.62246,NaN,0.092667,19
65,0.69092,1,1,1,1,1,0.1,NaN,0.62246,NaN,0.046833,19
66,0.31054,1,2,2,4,2,0.1,NaN,0.62246,NaN,0.001,19
67,0.29824,0,2,1,2,2,0.1,NaN,0.62246,NaN,0.001,19
68,0.38789,1,2,2,4,1,0.1,NaN,0.62246,NaN,0.23017,19
69,0.36762,1,2,2,3,1,0.1,NaN,0.62246,NaN,0.001,19
70,0.8492,0,2,1,3,2,0.1,NaN,0.62246,NaN,0.001,19
71,0.36486,0,1,2,1,2,0.1,NaN,0.62246,NaN,0.001,19
72,0.25649,1,1,1,4,2,0.1,NaN,0.62246,NaN,0.1385,19
