trial,RT,correct,response,interval,tPos,tGen,tCon1,tCon2,tNoi1,tNoi2,dPed,img,ped,pedRand,cues
1,0.30162,1,2,2,4,1,0.15,0.15,0.43782,0.70603,0.26821,13,4,2,1
2,0.43147,1,1,1,2,1,0.4,0.4,0.5594,0.32082,0.23858,7,3,4,1
3,0.30708,1,2,2,1,1,0.4,0.4,0.43782,0.62216,0.18433,2,4,4,4
4,0.30873,1,1,1,1,2,0.4,0.4,0.7527,0.2227,0.53,10,2,4,4
5,0.43238,1,1,1,3,2,0.25,0.25,0.69691,0.32082,0.37609,16,3,3,4
6,1.028,0,2,1,3,1,0.15,0.15,0.59924,0.43782,0.16142,18,4,2,4
7,0.97374,1,2,2,2,1,0.4,0.4,0.2227,0.7527,0.53,9,2,4,4
8,0.75348,0,2,1,4,2,0.4,0.4,0.68056,0.32082,0.35974,1,3,4,4
9,0.90908,1,1,1,4,2,0.15,0.15,0.62216,0.43782,0.18433,3,4,2,4
10,0.51067,0,2,1,2,1,0.25,0.25,0.5594,0.32082,0.23858,19,3,3,1
11,0.65036,1,2,2,2,1,0.4,0.4,0.32082,0.57265,0.25183,5,3,4,1
12,0.31796,1,2,2,4,1,0.4,0.4,0.43782,0.69765,0.25983,18,4,4,1
13,0.35172,1,2,2,1,1,0.25,0.25,0.43782,0.69765,0.25983,15,4,3,1
14,0.3233,1,2,2,4,1,0.25,0.25,0.2227,0.58419,0.36149,11,2,3,1
15,0.26891,1,2,2,3,1,0.15,0.15,0.43782,0.69765,0.25983,11,4,2,1
16,0.80066,0,2,1,2,1,0.15,0.15,0.7327,0.2227,0.51,20,2,2,4
17,1.2843,0,2,1,1,2,0.15,0.15,0.69691,0.32082,0.37609,3,3,2,4
18,0.45393,1,2,2,4,1,0.25,0.25,0.2227,0.58419,0.36149,8,2,3,1
19,0.36967,1,2,2,4,2,0.4,0.4,0.32082,0.71326,0.39244,13,3,4,4
20,0.30931,0,1,2,1,2,0.25,0.25,0.2227,0.5708,0.3481,6,2,3,1
21,0.2629,1,2,2,3,2,0.4,0.4,0.2227,0.7527,0.53,2,2,4,4
22,0.30668,1,1,1,4,1,0.25,0.25,0.57265,0.32082,0.25183,11,3,3,1
23,0.34833,1,1,1,3,1,0.4,0.4,0.58419,0.2227,0.36149,7,2,4,1
24,0.29605,1,1,1,3,2,0.25,0.25,0.58419,0.2227,0.36149,3,2,3,1
25,0.20364,1,2,2,3,2,0.25,0.25,0.43782,0.68927,0.25145,12,4,3,1
26,0.45324,1,1,1,2,1,0.15,0.15,0.57265,0.32082,0.25183,7,3,2,1
27,0.88882,1,1,1,4,2,0.15,0.15,0.58419,0.2227,0.36149,13,2,2,1
28,0.41246,0,2,1,4,2,0.15,0.15,0.5708,0.2227,0.3481,8,2,2,1
29,NaN,0,NaN,2,1,2,0.25,0.25,0.2227,0.7527,0.53,12,2,3,4
30,0.41782,1,2,2,1,1,0.4,0.4,0.43782,0.68927,0.25145,2,4,4,1
31,0.80545,0,2,1,4,1,0.4,0.4,0.62216,0.43782,0.18433,18,4,4,4
32,0.43118,1,2,2,4,2,0.25,0.25,0.2227,0.7527,0.53,6,2,3,4
33,0.32288,1,2,2,2,2,0.15,0.15,0.2227,0.7527,0.53,5,2,2,4
34,0.46043,1,1,1,4,1,0.25,0.25,0.64507,0.43782,0.20725,7,4,3,4
35,0.84006,1,1,1,2,2,0.15,0.15,0.71326,0.32082,0.39244,2,3,2,4
36,1.1478,1,1,1,3,2,0.4,0.4,0.64507,0.43782,0.20725,16,4,4,4
37,0.46151,1,2,2,4,2,0.25,0.25,0.43782,0.68927,0.25145,9,4,3,1
38,0.88119,0,2,1,1,2,0.15,0.15,0.7327,0.2227,0.51,1,2,2,4
39,0.30074,1,1,1,3,2,0.15,0.15,0.68089,0.43782,0.24306,18,4,2,1
40,0.33438,1,2,2,1,2,0.25,0.25,0.32082,0.5594,0.23858,4,3,3,1
41,0.36192,1,2,2,1,2,0.15,0.15,0.2227,0.7427,0.52,19,2,2,4
42,0.85367,0,2,1,1,2,0.4,0.4,0.64507,0.43782,0.20725,17,4,4,4
43,0.35133,1,2,2,3,2,0.4,0.4,0.2227,0.7427,0.52,16,2,4,4
44,0.5231,1,2,2,4,2,0.25,0.25,0.2227,0.7427,0.52,12,2,3,4
45,0.59665,0,2,1,3,2,0.15,0.15,0.58419,0.2227,0.36149,20,2,2,1
46,0.27232,1,2,2,4,1,0.15,0.15,0.2227,0.59758,0.37488,2,2,2,1
47,0.49206,1,1,1,2,2,0.4,0.4,0.71326,0.32082,0.39244,4,3,4,4
48,0.47774,1,2,2,3,1,0.25,0.25,0.43782,0.66799,0.23017,3,4,3,4
49,0.32934,1,2,2,3,1,0.25,0.25,0.32082,0.69691,0.37609,13,3,3,4
50,0.32498,1,1,1,3,2,0.4,0.4,0.5594,0.32082,0.23858,8,3,4,1
51,0.87862,1,1,1,4,1,0.25,0.25,0.7327,0.2227,0.51,14,2,3,4
52,0.70632,1,2,2,3,1,0.25,0.25,0.32082,0.69691,0.37609,9,3,3,4
53,0.40595,1,2,2,2,2,0.15,0.15,0.32082,0.69691,0.37609,2,3,2,4
54,0.31156,0,1,2,1,2,0.15,0.15,0.32082,0.5594,0.23858,15,3,2,1
55,1.1313,1,1,1,2,1,0.25,0.25,0.66799,0.43782,0.23017,11,4,3,4
56,1.0049,0,2,1,2,1,0.25,0.25,0.68873,0.32082,0.36791,15,3,3,4
57,0.47264,1,1,1,4,2,0.15,0.15,0.66799,0.43782,0.23017,6,4,2,4
58,0.26817,0,1,2,3,2,0.15,0.15,0.43782,0.68089,0.24306,10,4,2,1
59,0.26994,1,1,1,1,2,0.25,0.25,0.57265,0.32082,0.25183,11,3,3,1
60,0.32159,1,1,1,4,1,0.4,0.4,0.59758,0.2227,0.37488,14,2,4,1
61,0.18921,1,2,2,1,2,0.4,0.4,0.2227,0.59758,0.37488,7,2,4,1
62,0.29482,1,1,1,3,2,0.4,0.4,0.68927,0.43782,0.25145,5,4,4,1
63,0.73856,1,1,1,3,2,0.25,0.25,0.64507,0.43782,0.20725,11,4,3,4
64,0.31617,1,1,1,3,2,0.15,NaN,0.56218,NaN,0.25145,19,4,3,1
65,0.40787,1,2,2,2,2,0.4,0.4,0.5594,0.32082,0.25183,20,3,2,1
66,0.31555,1,2,2,2,1,0.1,NaN,0.32082,NaN,0.25145,1,4,4,1
67,0.48515,1,2,2,4,1,0.4,NaN,0.32082,NaN,0.25183,14,3,2,1
68,0.9528,0,2,1,1,2,0.4,NaN,0.14805,NaN,0.37609,19,3,2,4
69,0.58047,1,2,2,3,1,0.15,0.15,0.59924,0.43782,0.20725,8,4,2,4
70,0.30216,1,2,2,2,1,0.4,0.4,0.2227,0.7527,0.23858,4,3,4,1
71,0.87383,1,1,1,4,1,0.4,0.4,0.68056,0.32082,0.38426,16,3,4,4
72,0.3254,1,2,2,3,1,0.4,NaN,0.32082,NaN,0.36149,17,2,4,1
